TIME,CH1,SBP,DBP,Model,TBS1102C
-3.2000 ,2.0000 ,117,72,Firmware Version,v2015-08-04-prequal4ch70_v1.3
-3.1970 ,1.8400 ,,,,
-3.1940 ,1.6800 ,,,Point Format,Y
-3.1900 ,1.6000 ,,,Horizontal Units,S
-3.1870 ,1.4400 ,,,Horizontal Scale,0.4
-3.1840 ,1.3600 ,,,Sample Interval,0.0032
-3.1810 ,1.2400 ,,,Filter Frequency,2.00E+08
-3.1780 ,1.1600 ,,,Record Length,2000
-3.1740 ,1.0800 ,,,Gating,0.0% to 100.0%
-3.1710 ,0.9600 ,,,Probe Attenuation,10
-3.1680 ,0.8800 ,,,Vertical Units,V
-3.1650 ,0.8000 ,,,Vertical Offset,0
-3.1620 ,0.7600 ,,,Vertical Scale,1
-3.1580 ,0.6800 ,,,Label,
-3.1550 ,0.6000 ,,,,
-3.1520 ,0.5200 ,,,,
-3.1490 ,0.4400 ,,,,
-3.1460 ,0.4000 ,,,,
-3.1420 ,0.3200 ,,,,
-3.1390 ,0.2800 ,,,,
-3.1360 ,0.2000 ,,,,
-3.1330 ,0.2000 ,,,,
-3.1300 ,0.1200 ,,,,
-3.1260 ,0.0800 ,,,,
-3.1230 ,0.0400 ,,,,
-3.1200 ,0.0400 ,,,,
-3.1170 ,-0.0400 ,,,,
-3.1140 ,0.0000 ,,,,
-3.1100 ,0.0000 ,,,,
-3.1070 ,0.0000 ,,,,
-3.1040 ,0.0000 ,,,,
-3.1010 ,0.0000 ,,,,
-3.0980 ,0.0000 ,,,,
-3.0940 ,0.0400 ,,,,
-3.0910 ,0.0000 ,,,,
-3.0880 ,0.0800 ,,,,
-3.0850 ,0.1200 ,,,,
-3.0820 ,0.1200 ,,,,
-3.0780 ,0.1600 ,,,,
-3.0750 ,0.2000 ,,,,
-3.0720 ,0.2800 ,,,,
-3.0690 ,0.2800 ,,,,
-3.0660 ,0.3200 ,,,,
-3.0620 ,0.3600 ,,,,
-3.0590 ,0.4000 ,,,,
-3.0560 ,0.4400 ,,,,
-3.0530 ,0.4800 ,,,,
-3.0500 ,0.5600 ,,,,
-3.0460 ,0.5600 ,,,,
-3.0430 ,0.6000 ,,,,
-3.0400 ,0.6400 ,,,,
-3.0370 ,0.6400 ,,,,
-3.0340 ,0.6800 ,,,,
-3.0300 ,0.6800 ,,,,
-3.0270 ,0.7200 ,,,,
-3.0240 ,0.7600 ,,,,
-3.0210 ,0.7600 ,,,,
-3.0180 ,0.7600 ,,,,
-3.0140 ,0.7600 ,,,,
-3.0110 ,0.7600 ,,,,
-3.0080 ,0.7600 ,,,,
-3.0050 ,0.7600 ,,,,
-3.0020 ,0.7600 ,,,,
-2.9980 ,0.7200 ,,,,
-2.9950 ,0.7200 ,,,,
-2.9920 ,0.7200 ,,,,
-2.9890 ,0.6800 ,,,,
-2.9860 ,0.6800 ,,,,
-2.9820 ,0.6400 ,,,,
-2.9790 ,0.6000 ,,,,
-2.9760 ,0.6000 ,,,,
-2.9730 ,0.5600 ,,,,
-2.9700 ,0.5200 ,,,,
-2.9660 ,0.4800 ,,,,
-2.9630 ,0.4000 ,,,,
-2.9600 ,0.3200 ,,,,
-2.9570 ,0.2800 ,,,,
-2.9540 ,0.2800 ,,,,
-2.9500 ,0.2000 ,,,,
-2.9470 ,0.1600 ,,,,
-2.9440 ,0.0800 ,,,,
-2.9410 ,0.0400 ,,,,
-2.9380 ,0.0000 ,,,,
-2.9340 ,-0.0400 ,,,,
-2.9310 ,-0.1200 ,,,,
-2.9280 ,-0.1600 ,,,,
-2.9250 ,-0.2400 ,,,,
-2.9220 ,-0.2800 ,,,,
-2.9180 ,-0.2800 ,,,,
-2.9150 ,-0.3600 ,,,,
-2.9120 ,-0.3600 ,,,,
-2.9090 ,-0.4400 ,,,,
-2.9060 ,-0.4400 ,,,,
-2.9020 ,-0.4800 ,,,,
-2.8990 ,-0.5200 ,,,,
-2.8960 ,-0.5600 ,,,,
-2.8930 ,-0.5600 ,,,,
-2.8900 ,-0.6000 ,,,,
-2.8860 ,-0.6000 ,,,,
-2.8830 ,-0.6400 ,,,,
-2.8800 ,-0.6800 ,,,,
-2.8770 ,-0.6800 ,,,,
-2.8740 ,-0.7200 ,,,,
-2.8700 ,-0.7200 ,,,,
-2.8670 ,-0.7600 ,,,,
-2.8640 ,-0.7600 ,,,,
-2.8610 ,-0.8000 ,,,,
-2.8580 ,-0.8400 ,,,,
-2.8540 ,-0.8400 ,,,,
-2.8510 ,-0.8800 ,,,,
-2.8480 ,-0.9200 ,,,,
-2.8450 ,-0.9200 ,,,,
-2.8420 ,-0.9600 ,,,,
-2.8380 ,-1.0000 ,,,,
-2.8350 ,-0.9600 ,,,,
-2.8320 ,-1.0000 ,,,,
-2.8290 ,-1.0400 ,,,,
-2.8260 ,-1.0400 ,,,,
-2.8220 ,-1.0400 ,,,,
-2.8190 ,-1.0800 ,,,,
-2.8160 ,-1.0800 ,,,,
-2.8130 ,-1.0800 ,,,,
-2.8100 ,-1.1200 ,,,,
-2.8060 ,-1.1200 ,,,,
-2.8030 ,-1.1200 ,,,,
-2.8000 ,-1.1200 ,,,,
-2.7970 ,-1.1200 ,,,,
-2.7940 ,-1.1200 ,,,,
-2.7900 ,-1.1200 ,,,,
-2.7870 ,-1.1600 ,,,,
-2.7840 ,-1.1600 ,,,,
-2.7810 ,-1.1600 ,,,,
-2.7780 ,-1.1600 ,,,,
-2.7740 ,-1.2000 ,,,,
-2.7710 ,-1.1600 ,,,,
-2.7680 ,-1.1600 ,,,,
-2.7650 ,-1.2000 ,,,,
-2.7620 ,-1.2400 ,,,,
-2.7580 ,-1.2400 ,,,,
-2.7550 ,-1.2400 ,,,,
-2.7520 ,-1.2800 ,,,,
-2.7490 ,-1.2800 ,,,,
-2.7460 ,-1.3200 ,,,,
-2.7420 ,-1.3600 ,,,,
-2.7390 ,-1.3600 ,,,,
-2.7360 ,-1.3600 ,,,,
-2.7330 ,-1.3600 ,,,,
-2.7300 ,-1.4000 ,,,,
-2.7260 ,-1.4000 ,,,,
-2.7230 ,-1.4400 ,,,,
-2.7200 ,-1.4400 ,,,,
-2.7170 ,-1.4400 ,,,,
-2.7140 ,-1.4800 ,,,,
-2.7100 ,-1.4800 ,,,,
-2.7070 ,-1.5200 ,,,,
-2.7040 ,-1.4800 ,,,,
-2.7010 ,-1.4800 ,,,,
-2.6980 ,-1.4800 ,,,,
-2.6940 ,-1.4800 ,,,,
-2.6910 ,-1.4400 ,,,,
-2.6880 ,-1.4000 ,,,,
-2.6850 ,-1.4000 ,,,,
-2.6820 ,-1.3600 ,,,,
-2.6780 ,-1.2400 ,,,,
-2.6750 ,-1.2000 ,,,,
-2.6720 ,-1.0800 ,,,,
-2.6690 ,-0.9600 ,,,,
-2.6660 ,-0.8000 ,,,,
-2.6620 ,-0.6400 ,,,,
-2.6590 ,-0.4400 ,,,,
-2.6560 ,-0.2400 ,,,,
-2.6530 ,-0.0400 ,,,,
-2.6500 ,0.2000 ,,,,
-2.6460 ,0.4800 ,,,,
-2.6430 ,0.7600 ,,,,
-2.6400 ,1.0400 ,,,,
-2.6370 ,1.2800 ,,,,
-2.6340 ,1.5600 ,,,,
-2.6300 ,1.8400 ,,,,
-2.6270 ,2.1200 ,,,,
-2.6240 ,2.4000 ,,,,
-2.6210 ,2.6800 ,,,,
-2.6180 ,2.8800 ,,,,
-2.6140 ,3.1200 ,,,,
-2.6110 ,3.3200 ,,,,
-2.6080 ,3.5200 ,,,,
-2.6050 ,3.6400 ,,,,
-2.6020 ,3.8000 ,,,,
-2.5980 ,3.9200 ,,,,
-2.5950 ,3.9600 ,,,,
-2.5920 ,4.0400 ,,,,
-2.5890 ,4.0800 ,,,,
-2.5860 ,4.0800 ,,,,
-2.5820 ,4.0400 ,,,,
-2.5790 ,4.0000 ,,,,
-2.5760 ,3.9200 ,,,,
-2.5730 ,3.8400 ,,,,
-2.5700 ,3.7600 ,,,,
-2.5660 ,3.6000 ,,,,
-2.5630 ,3.4400 ,,,,
-2.5600 ,3.3200 ,,,,
-2.5570 ,3.1600 ,,,,
-2.5540 ,3.0000 ,,,,
-2.5500 ,2.8400 ,,,,
-2.5470 ,2.6800 ,,,,
-2.5440 ,2.4800 ,,,,
-2.5410 ,2.2800 ,,,,
-2.5380 ,2.0800 ,,,,
-2.5340 ,1.9200 ,,,,
-2.5310 ,1.7200 ,,,,
-2.5280 ,1.5600 ,,,,
-2.5250 ,1.4000 ,,,,
-2.5220 ,1.2400 ,,,,
-2.5180 ,1.0800 ,,,,
-2.5150 ,0.9200 ,,,,
-2.5120 ,0.8000 ,,,,
-2.5090 ,0.6400 ,,,,
-2.5060 ,0.5600 ,,,,
-2.5020 ,0.4400 ,,,,
-2.4990 ,0.2800 ,,,,
-2.4960 ,0.2000 ,,,,
-2.4930 ,0.1200 ,,,,
-2.4900 ,0.0000 ,,,,
-2.4860 ,-0.0400 ,,,,
-2.4830 ,-0.1200 ,,,,
-2.4800 ,-0.2000 ,,,,
-2.4770 ,-0.2400 ,,,,
-2.4740 ,-0.3200 ,,,,
-2.4700 ,-0.3600 ,,,,
-2.4670 ,-0.4400 ,,,,
-2.4640 ,-0.4800 ,,,,
-2.4610 ,-0.5200 ,,,,
-2.4580 ,-0.5600 ,,,,
-2.4540 ,-0.6000 ,,,,
-2.4510 ,-0.6000 ,,,,
-2.4480 ,-0.6400 ,,,,
-2.4450 ,-0.6800 ,,,,
-2.4420 ,-0.7200 ,,,,
-2.4380 ,-0.7200 ,,,,
-2.4350 ,-0.7600 ,,,,
-2.4320 ,-0.7600 ,,,,
-2.4290 ,-0.7200 ,,,,
-2.4260 ,-0.7200 ,,,,
-2.4220 ,-0.6800 ,,,,
-2.4190 ,-0.6400 ,,,,
-2.4160 ,-0.6400 ,,,,
-2.4130 ,-0.6000 ,,,,
-2.4100 ,-0.6000 ,,,,
-2.4060 ,-0.5600 ,,,,
-2.4030 ,-0.5200 ,,,,
-2.4000 ,-0.4800 ,,,,
-2.3970 ,-0.4400 ,,,,
-2.3940 ,-0.4000 ,,,,
-2.3900 ,-0.3600 ,,,,
-2.3870 ,-0.3200 ,,,,
-2.3840 ,-0.2800 ,,,,
-2.3810 ,-0.2000 ,,,,
-2.3780 ,-0.1600 ,,,,
-2.3740 ,-0.1600 ,,,,
-2.3710 ,-0.0800 ,,,,
-2.3680 ,-0.0400 ,,,,
-2.3650 ,0.0000 ,,,,
-2.3620 ,0.0400 ,,,,
-2.3580 ,0.0800 ,,,,
-2.3550 ,0.0800 ,,,,
-2.3520 ,0.1200 ,,,,
-2.3490 ,0.1600 ,,,,
-2.3460 ,0.2000 ,,,,
-2.3420 ,0.2000 ,,,,
-2.3390 ,0.2400 ,,,,
-2.3360 ,0.2800 ,,,,
-2.3330 ,0.2800 ,,,,
-2.3300 ,0.3200 ,,,,
-2.3260 ,0.3600 ,,,,
-2.3230 ,0.3600 ,,,,
-2.3200 ,0.3600 ,,,,
-2.3170 ,0.3600 ,,,,
-2.3140 ,0.3600 ,,,,
-2.3100 ,0.3200 ,,,,
-2.3070 ,0.3200 ,,,,
-2.3040 ,0.3200 ,,,,
-2.3010 ,0.2800 ,,,,
-2.2980 ,0.2800 ,,,,
-2.2940 ,0.2000 ,,,,
-2.2910 ,0.1600 ,,,,
-2.2880 ,0.1200 ,,,,
-2.2850 ,0.1200 ,,,,
-2.2820 ,0.0400 ,,,,
-2.2780 ,0.0000 ,,,,
-2.2750 ,-0.0400 ,,,,
-2.2720 ,-0.1200 ,,,,
-2.2690 ,-0.1200 ,,,,
-2.2660 ,-0.2000 ,,,,
-2.2620 ,-0.2800 ,,,,
-2.2590 ,-0.3200 ,,,,
-2.2560 ,-0.3600 ,,,,
-2.2530 ,-0.4400 ,,,,
-2.2500 ,-0.4800 ,,,,
-2.2460 ,-0.5200 ,,,,
-2.2430 ,-0.6000 ,,,,
-2.2400 ,-0.6400 ,,,,
-2.2370 ,-0.6800 ,,,,
-2.2340 ,-0.7200 ,,,,
-2.2300 ,-0.7600 ,,,,
-2.2270 ,-0.8000 ,,,,
-2.2240 ,-0.8400 ,,,,
-2.2210 ,-0.8800 ,,,,
-2.2180 ,-0.9200 ,,,,
-2.2140 ,-0.9600 ,,,,
-2.2110 ,-0.9600 ,,,,
-2.2080 ,-1.0000 ,,,,
-2.2050 ,-1.0400 ,,,,
-2.2020 ,-1.0400 ,,,,
-2.1980 ,-1.1200 ,,,,
-2.1950 ,-1.1200 ,,,,
-2.1920 ,-1.1600 ,,,,
-2.1890 ,-1.1600 ,,,,
-2.1860 ,-1.2000 ,,,,
-2.1820 ,-1.2000 ,,,,
-2.1790 ,-1.2400 ,,,,
-2.1760 ,-1.2400 ,,,,
-2.1730 ,-1.2800 ,,,,
-2.1700 ,-1.3200 ,,,,
-2.1660 ,-1.4000 ,,,,
-2.1630 ,-1.4000 ,,,,
-2.1600 ,-1.4000 ,,,,
-2.1570 ,-1.4400 ,,,,
-2.1540 ,-1.4800 ,,,,
-2.1500 ,-1.5200 ,,,,
-2.1470 ,-1.5200 ,,,,
-2.1440 ,-1.5200 ,,,,
-2.1410 ,-1.5600 ,,,,
-2.1380 ,-1.6000 ,,,,
-2.1340 ,-1.6000 ,,,,
-2.1310 ,-1.6400 ,,,,
-2.1280 ,-1.6400 ,,,,
-2.1250 ,-1.6400 ,,,,
-2.1220 ,-1.6800 ,,,,
-2.1180 ,-1.6800 ,,,,
-2.1150 ,-1.6800 ,,,,
-2.1120 ,-1.7200 ,,,,
-2.1090 ,-1.7200 ,,,,
-2.1060 ,-1.7200 ,,,,
-2.1020 ,-1.7200 ,,,,
-2.0990 ,-1.7600 ,,,,
-2.0960 ,-1.7600 ,,,,
-2.0930 ,-1.7600 ,,,,
-2.0900 ,-1.7600 ,,,,
-2.0860 ,-1.7600 ,,,,
-2.0830 ,-1.8000 ,,,,
-2.0800 ,-1.7600 ,,,,
-2.0770 ,-1.7600 ,,,,
-2.0740 ,-1.8000 ,,,,
-2.0700 ,-1.8000 ,,,,
-2.0670 ,-1.8400 ,,,,
-2.0640 ,-1.8400 ,,,,
-2.0610 ,-1.8800 ,,,,
-2.0580 ,-1.8400 ,,,,
-2.0540 ,-1.8800 ,,,,
-2.0510 ,-1.9200 ,,,,
-2.0480 ,-1.9200 ,,,,
-2.0450 ,-1.9200 ,,,,
-2.0420 ,-1.9600 ,,,,
-2.0380 ,-1.9600 ,,,,
-2.0350 ,-1.9600 ,,,,
-2.0320 ,-2.0000 ,,,,
-2.0290 ,-2.0400 ,,,,
-2.0260 ,-2.0400 ,,,,
-2.0220 ,-2.0400 ,,,,
-2.0190 ,-2.0400 ,,,,
-2.0160 ,-2.0400 ,,,,
-2.0130 ,-2.0800 ,,,,
-2.0100 ,-2.0400 ,,,,
-2.0060 ,-2.0400 ,,,,
-2.0030 ,-2.0000 ,,,,
-2.0000 ,-1.9600 ,,,,
-1.9970 ,-1.8800 ,,,,
-1.9940 ,-1.8000 ,,,,
-1.9900 ,-1.7200 ,,,,
-1.9870 ,-1.6000 ,,,,
-1.9840 ,-1.4400 ,,,,
-1.9810 ,-1.3200 ,,,,
-1.9780 ,-1.1200 ,,,,
-1.9740 ,-0.9600 ,,,,
-1.9710 ,-0.7200 ,,,,
-1.9680 ,-0.5200 ,,,,
-1.9650 ,-0.2400 ,,,,
-1.9620 ,0.0000 ,,,,
-1.9580 ,0.2400 ,,,,
-1.9550 ,0.5200 ,,,,
-1.9520 ,0.8000 ,,,,
-1.9490 ,1.0800 ,,,,
-1.9460 ,1.4000 ,,,,
-1.9420 ,1.6400 ,,,,
-1.9390 ,1.9200 ,,,,
-1.9360 ,2.1200 ,,,,
-1.9330 ,2.3600 ,,,,
-1.9300 ,2.5600 ,,,,
-1.9260 ,2.7600 ,,,,
-1.9230 ,2.9200 ,,,,
-1.9200 ,3.1200 ,,,,
-1.9170 ,3.2000 ,,,,
-1.9140 ,3.3200 ,,,,
-1.9100 ,3.4000 ,,,,
-1.9070 ,3.4800 ,,,,
-1.9040 ,3.5600 ,,,,
-1.9010 ,3.6000 ,,,,
-1.8980 ,3.5600 ,,,,
-1.8940 ,3.5600 ,,,,
-1.8910 ,3.5600 ,,,,
-1.8880 ,3.4800 ,,,,
-1.8850 ,3.4000 ,,,,
-1.8820 ,3.2800 ,,,,
-1.8780 ,3.2000 ,,,,
-1.8750 ,3.0800 ,,,,
-1.8720 ,2.9200 ,,,,
-1.8690 ,2.7600 ,,,,
-1.8660 ,2.6000 ,,,,
-1.8620 ,2.4000 ,,,,
-1.8590 ,2.2400 ,,,,
-1.8560 ,2.0000 ,,,,
-1.8530 ,1.8400 ,,,,
-1.8500 ,1.6400 ,,,,
-1.8460 ,1.4400 ,,,,
-1.8430 ,1.2800 ,,,,
-1.8400 ,1.0400 ,,,,
-1.8370 ,0.9200 ,,,,
-1.8340 ,0.7200 ,,,,
-1.8300 ,0.5600 ,,,,
-1.8270 ,0.4400 ,,,,
-1.8240 ,0.2800 ,,,,
-1.8210 ,0.1600 ,,,,
-1.8180 ,0.0400 ,,,,
-1.8140 ,-0.0400 ,,,,
-1.8110 ,-0.1600 ,,,,
-1.8080 ,-0.2800 ,,,,
-1.8050 ,-0.3600 ,,,,
-1.8020 ,-0.4800 ,,,,
-1.7980 ,-0.5200 ,,,,
-1.7950 ,-0.6000 ,,,,
-1.7920 ,-0.6800 ,,,,
-1.7890 ,-0.7600 ,,,,
-1.7860 ,-0.8000 ,,,,
-1.7820 ,-0.8800 ,,,,
-1.7790 ,-0.8800 ,,,,
-1.7760 ,-0.9600 ,,,,
-1.7730 ,-1.0400 ,,,,
-1.7700 ,-1.0400 ,,,,
-1.7660 ,-1.0800 ,,,,
-1.7630 ,-1.1200 ,,,,
-1.7600 ,-1.1600 ,,,,
-1.7570 ,-1.2000 ,,,,
-1.7540 ,-1.1600 ,,,,
-1.7500 ,-1.2000 ,,,,
-1.7470 ,-1.2000 ,,,,
-1.7440 ,-1.2000 ,,,,
-1.7410 ,-1.2000 ,,,,
-1.7380 ,-1.2400 ,,,,
-1.7340 ,-1.2000 ,,,,
-1.7310 ,-1.1600 ,,,,
-1.7280 ,-1.1600 ,,,,
-1.7250 ,-1.1200 ,,,,
-1.7220 ,-1.1200 ,,,,
-1.7180 ,-1.0400 ,,,,
-1.7150 ,-1.0000 ,,,,
-1.7120 ,-0.9600 ,,,,
-1.7090 ,-0.9200 ,,,,
-1.7060 ,-0.8800 ,,,,
-1.7020 ,-0.8000 ,,,,
-1.6990 ,-0.7600 ,,,,
-1.6960 ,-0.7200 ,,,,
-1.6930 ,-0.6400 ,,,,
-1.6900 ,-0.6000 ,,,,
-1.6860 ,-0.5600 ,,,,
-1.6830 ,-0.4800 ,,,,
-1.6800 ,-0.4400 ,,,,
-1.6770 ,-0.4000 ,,,,
-1.6740 ,-0.3200 ,,,,
-1.6700 ,-0.2800 ,,,,
-1.6670 ,-0.2400 ,,,,
-1.6640 ,-0.2400 ,,,,
-1.6610 ,-0.1600 ,,,,
-1.6580 ,-0.1600 ,,,,
-1.6540 ,-0.1200 ,,,,
-1.6510 ,-0.0800 ,,,,
-1.6480 ,-0.0800 ,,,,
-1.6450 ,-0.0400 ,,,,
-1.6420 ,-0.0800 ,,,,
-1.6380 ,-0.1200 ,,,,
-1.6350 ,-0.0800 ,,,,
-1.6320 ,-0.0800 ,,,,
-1.6290 ,-0.1200 ,,,,
-1.6260 ,-0.1200 ,,,,
-1.6220 ,-0.1600 ,,,,
-1.6190 ,-0.1600 ,,,,
-1.6160 ,-0.2000 ,,,,
-1.6130 ,-0.2400 ,,,,
-1.6100 ,-0.2800 ,,,,
-1.6060 ,-0.3200 ,,,,
-1.6030 ,-0.3200 ,,,,
-1.6000 ,-0.3600 ,,,,
-1.5970 ,-0.4000 ,,,,
-1.5940 ,-0.4400 ,,,,
-1.5900 ,-0.4400 ,,,,
-1.5870 ,-0.5200 ,,,,
-1.5840 ,-0.5600 ,,,,
-1.5810 ,-0.6000 ,,,,
-1.5780 ,-0.6400 ,,,,
-1.5740 ,-0.6800 ,,,,
-1.5710 ,-0.7200 ,,,,
-1.5680 ,-0.7600 ,,,,
-1.5650 ,-0.8000 ,,,,
-1.5620 ,-0.8400 ,,,,
-1.5580 ,-0.8800 ,,,,
-1.5550 ,-0.9200 ,,,,
-1.5520 ,-1.0000 ,,,,
-1.5490 ,-1.0000 ,,,,
-1.5460 ,-1.0800 ,,,,
-1.5420 ,-1.1200 ,,,,
-1.5390 ,-1.1600 ,,,,
-1.5360 ,-1.2000 ,,,,
-1.5330 ,-1.2400 ,,,,
-1.5300 ,-1.2800 ,,,,
-1.5260 ,-1.3200 ,,,,
-1.5230 ,-1.3600 ,,,,
-1.5200 ,-1.4000 ,,,,
-1.5170 ,-1.4000 ,,,,
-1.5140 ,-1.4400 ,,,,
-1.5100 ,-1.4800 ,,,,
-1.5070 ,-1.4800 ,,,,
-1.5040 ,-1.5200 ,,,,
-1.5010 ,-1.5200 ,,,,
-1.4980 ,-1.5600 ,,,,
-1.4940 ,-1.5600 ,,,,
-1.4910 ,-1.6000 ,,,,
-1.4880 ,-1.6000 ,,,,
-1.4850 ,-1.6000 ,,,,
-1.4820 ,-1.6000 ,,,,
-1.4780 ,-1.6400 ,,,,
-1.4750 ,-1.6400 ,,,,
-1.4720 ,-1.6800 ,,,,
-1.4690 ,-1.6800 ,,,,
-1.4660 ,-1.6400 ,,,,
-1.4620 ,-1.6800 ,,,,
-1.4590 ,-1.6800 ,,,,
-1.4560 ,-1.6800 ,,,,
-1.4530 ,-1.7200 ,,,,
-1.4500 ,-1.7200 ,,,,
-1.4460 ,-1.7200 ,,,,
-1.4430 ,-1.7600 ,,,,
-1.4400 ,-1.7200 ,,,,
-1.4370 ,-1.7200 ,,,,
-1.4340 ,-1.7600 ,,,,
-1.4300 ,-1.7600 ,,,,
-1.4270 ,-1.7600 ,,,,
-1.4240 ,-1.7600 ,,,,
-1.4210 ,-1.8000 ,,,,
-1.4180 ,-1.8000 ,,,,
-1.4140 ,-1.8000 ,,,,
-1.4110 ,-1.8000 ,,,,
-1.4080 ,-1.8000 ,,,,
-1.4050 ,-1.8400 ,,,,
-1.4020 ,-1.8400 ,,,,
-1.3980 ,-1.8800 ,,,,
-1.3950 ,-1.8800 ,,,,
-1.3920 ,-1.8800 ,,,,
-1.3890 ,-1.8800 ,,,,
-1.3860 ,-1.8800 ,,,,
-1.3820 ,-1.9200 ,,,,
-1.3790 ,-1.8800 ,,,,
-1.3760 ,-1.9200 ,,,,
-1.3730 ,-1.9200 ,,,,
-1.3700 ,-1.9200 ,,,,
-1.3660 ,-1.9600 ,,,,
-1.3630 ,-1.9600 ,,,,
-1.3600 ,-2.0000 ,,,,
-1.3570 ,-1.9600 ,,,,
-1.3540 ,-1.9600 ,,,,
-1.3500 ,-2.0000 ,,,,
-1.3470 ,-1.9600 ,,,,
-1.3440 ,-1.9600 ,,,,
-1.3410 ,-1.9600 ,,,,
-1.3380 ,-1.9600 ,,,,
-1.3340 ,-1.9600 ,,,,
-1.3310 ,-1.9200 ,,,,
-1.3280 ,-1.9200 ,,,,
-1.3250 ,-1.8400 ,,,,
-1.3220 ,-1.8000 ,,,,
-1.3180 ,-1.7200 ,,,,
-1.3150 ,-1.6000 ,,,,
-1.3120 ,-1.4800 ,,,,
-1.3090 ,-1.3600 ,,,,
-1.3060 ,-1.2000 ,,,,
-1.3020 ,-1.0400 ,,,,
-1.2990 ,-0.8400 ,,,,
-1.2960 ,-0.6400 ,,,,
-1.2930 ,-0.4000 ,,,,
-1.2900 ,-0.2000 ,,,,
-1.2860 ,0.0800 ,,,,
-1.2830 ,0.3200 ,,,,
-1.2800 ,0.6000 ,,,,
-1.2770 ,0.8800 ,,,,
-1.2740 ,1.1200 ,,,,
-1.2700 ,1.4000 ,,,,
-1.2670 ,1.6400 ,,,,
-1.2640 ,1.9600 ,,,,
-1.2610 ,2.2000 ,,,,
-1.2580 ,2.4400 ,,,,
-1.2540 ,2.6000 ,,,,
-1.2510 ,2.8000 ,,,,
-1.2480 ,2.9600 ,,,,
-1.2450 ,3.1200 ,,,,
-1.2420 ,3.2400 ,,,,
-1.2380 ,3.3200 ,,,,
-1.2350 ,3.4000 ,,,,
-1.2320 ,3.4800 ,,,,
-1.2290 ,3.5200 ,,,,
-1.2260 ,3.5200 ,,,,
-1.2220 ,3.5200 ,,,,
-1.2190 ,3.4800 ,,,,
-1.2160 ,3.4400 ,,,,
-1.2130 ,3.3600 ,,,,
-1.2100 ,3.2400 ,,,,
-1.2060 ,3.1600 ,,,,
-1.2030 ,3.0400 ,,,,
-1.2000 ,2.8800 ,,,,
-1.1970 ,2.7600 ,,,,
-1.1940 ,2.6000 ,,,,
-1.1900 ,2.3600 ,,,,
-1.1870 ,2.2000 ,,,,
-1.1840 ,2.0400 ,,,,
-1.1810 ,1.8400 ,,,,
-1.1780 ,1.6400 ,,,,
-1.1740 ,1.4800 ,,,,
-1.1710 ,1.3200 ,,,,
-1.1680 ,1.1600 ,,,,
-1.1650 ,0.9600 ,,,,
-1.1620 ,0.8400 ,,,,
-1.1580 ,0.6800 ,,,,
-1.1550 ,0.5200 ,,,,
-1.1520 ,0.4000 ,,,,
-1.1490 ,0.3200 ,,,,
-1.1460 ,0.1600 ,,,,
-1.1420 ,0.0400 ,,,,
-1.1390 ,-0.0400 ,,,,
-1.1360 ,-0.1200 ,,,,
-1.1330 ,-0.2400 ,,,,
-1.1300 ,-0.3200 ,,,,
-1.1260 ,-0.4000 ,,,,
-1.1230 ,-0.4800 ,,,,
-1.1200 ,-0.5600 ,,,,
-1.1170 ,-0.6000 ,,,,
-1.1140 ,-0.6800 ,,,,
-1.1100 ,-0.7200 ,,,,
-1.1070 ,-0.8000 ,,,,
-1.1040 ,-0.8000 ,,,,
-1.1010 ,-0.8800 ,,,,
-1.0980 ,-0.9600 ,,,,
-1.0940 ,-1.0000 ,,,,
-1.0910 ,-1.0000 ,,,,
-1.0880 ,-1.0400 ,,,,
-1.0850 ,-1.0800 ,,,,
-1.0820 ,-1.0800 ,,,,
-1.0780 ,-1.1200 ,,,,
-1.0750 ,-1.0800 ,,,,
-1.0720 ,-1.1200 ,,,,
-1.0690 ,-1.1200 ,,,,
-1.0660 ,-1.1200 ,,,,
-1.0620 ,-1.0800 ,,,,
-1.0590 ,-1.1200 ,,,,
-1.0560 ,-1.0800 ,,,,
-1.0530 ,-1.0800 ,,,,
-1.0500 ,-1.0000 ,,,,
-1.0460 ,-1.0000 ,,,,
-1.0430 ,-0.9200 ,,,,
-1.0400 ,-0.8800 ,,,,
-1.0370 ,-0.8400 ,,,,
-1.0340 ,-0.7600 ,,,,
-1.0300 ,-0.7600 ,,,,
-1.0270 ,-0.6400 ,,,,
-1.0240 ,-0.6000 ,,,,
-1.0210 ,-0.6000 ,,,,
-1.0180 ,-0.5200 ,,,,
-1.0140 ,-0.4400 ,,,,
-1.0110 ,-0.4000 ,,,,
-1.0080 ,-0.3200 ,,,,
-1.0050 ,-0.2400 ,,,,
-1.0020 ,-0.2400 ,,,,
-0.9984 ,-0.2000 ,,,,
-0.9952 ,-0.1200 ,,,,
-0.9920 ,-0.0800 ,,,,
-0.9888 ,-0.0400 ,,,,
-0.9856 ,0.0000 ,,,,
-0.9824 ,0.0400 ,,,,
-0.9792 ,0.0400 ,,,,
-0.9760 ,0.0400 ,,,,
-0.9728 ,0.0800 ,,,,
-0.9696 ,0.0800 ,,,,
-0.9664 ,0.0800 ,,,,
-0.9632 ,0.0400 ,,,,
-0.9600 ,0.0400 ,,,,
-0.9568 ,0.0400 ,,,,
-0.9536 ,0.0400 ,,,,
-0.9504 ,0.0000 ,,,,
-0.9472 ,0.0000 ,,,,
-0.9440 ,-0.0400 ,,,,
-0.9408 ,-0.0800 ,,,,
-0.9376 ,-0.1200 ,,,,
-0.9344 ,-0.2000 ,,,,
-0.9312 ,-0.2000 ,,,,
-0.9280 ,-0.2400 ,,,,
-0.9248 ,-0.3200 ,,,,
-0.9216 ,-0.3200 ,,,,
-0.9184 ,-0.4000 ,,,,
-0.9152 ,-0.4800 ,,,,
-0.9120 ,-0.4800 ,,,,
-0.9088 ,-0.5200 ,,,,
-0.9056 ,-0.5600 ,,,,
-0.9024 ,-0.6800 ,,,,
-0.8992 ,-0.6800 ,,,,
-0.8960 ,-0.7600 ,,,,
-0.8928 ,-0.8000 ,,,,
-0.8896 ,-0.8000 ,,,,
-0.8864 ,-0.8400 ,,,,
-0.8832 ,-0.9200 ,,,,
-0.8800 ,-0.9200 ,,,,
-0.8768 ,-0.9600 ,,,,
-0.8736 ,-1.0000 ,,,,
-0.8704 ,-1.0400 ,,,,
-0.8672 ,-1.0800 ,,,,
-0.8640 ,-1.1200 ,,,,
-0.8608 ,-1.1600 ,,,,
-0.8576 ,-1.1600 ,,,,
-0.8544 ,-1.2000 ,,,,
-0.8512 ,-1.2400 ,,,,
-0.8480 ,-1.2400 ,,,,
-0.8448 ,-1.2800 ,,,,
-0.8416 ,-1.3200 ,,,,
-0.8384 ,-1.3200 ,,,,
-0.8352 ,-1.3600 ,,,,
-0.8320 ,-1.3600 ,,,,
-0.8288 ,-1.3600 ,,,,
-0.8256 ,-1.4400 ,,,,
-0.8224 ,-1.4400 ,,,,
-0.8192 ,-1.4400 ,,,,
-0.8160 ,-1.4400 ,,,,
-0.8128 ,-1.4800 ,,,,
-0.8096 ,-1.4800 ,,,,
-0.8064 ,-1.4800 ,,,,
-0.8032 ,-1.5200 ,,,,
-0.8000 ,-1.5600 ,,,,
-0.7968 ,-1.5200 ,,,,
-0.7936 ,-1.5600 ,,,,
-0.7904 ,-1.5600 ,,,,
-0.7872 ,-1.5200 ,,,,
-0.7840 ,-1.5600 ,,,,
-0.7808 ,-1.5600 ,,,,
-0.7776 ,-1.5600 ,,,,
-0.7744 ,-1.6000 ,,,,
-0.7712 ,-1.5600 ,,,,
-0.7680 ,-1.5600 ,,,,
-0.7648 ,-1.5600 ,,,,
-0.7616 ,-1.6000 ,,,,
-0.7584 ,-1.6000 ,,,,
-0.7552 ,-1.6000 ,,,,
-0.7520 ,-1.6000 ,,,,
-0.7488 ,-1.6000 ,,,,
-0.7456 ,-1.6000 ,,,,
-0.7424 ,-1.6400 ,,,,
-0.7392 ,-1.6400 ,,,,
-0.7360 ,-1.6800 ,,,,
-0.7328 ,-1.6800 ,,,,
-0.7296 ,-1.7200 ,,,,
-0.7264 ,-1.6800 ,,,,
-0.7232 ,-1.7200 ,,,,
-0.7200 ,-1.7600 ,,,,
-0.7168 ,-1.7600 ,,,,
-0.7136 ,-1.7600 ,,,,
-0.7104 ,-1.8000 ,,,,
-0.7072 ,-1.8000 ,,,,
-0.7040 ,-1.8000 ,,,,
-0.7008 ,-1.8000 ,,,,
-0.6976 ,-1.8400 ,,,,
-0.6944 ,-1.8400 ,,,,
-0.6912 ,-1.8800 ,,,,
-0.6880 ,-1.8400 ,,,,
-0.6848 ,-1.8800 ,,,,
-0.6816 ,-1.8400 ,,,,
-0.6784 ,-1.8400 ,,,,
-0.6752 ,-1.8000 ,,,,
-0.6720 ,-1.7600 ,,,,
-0.6688 ,-1.6800 ,,,,
-0.6656 ,-1.6000 ,,,,
-0.6624 ,-1.5200 ,,,,
-0.6592 ,-1.4000 ,,,,
-0.6560 ,-1.2400 ,,,,
-0.6528 ,-1.0800 ,,,,
-0.6496 ,-0.9200 ,,,,
-0.6464 ,-0.7200 ,,,,
-0.6432 ,-0.4800 ,,,,
-0.6400 ,-0.2400 ,,,,
-0.6368 ,0.0400 ,,,,
-0.6336 ,0.2800 ,,,,
-0.6304 ,0.5200 ,,,,
-0.6272 ,0.8000 ,,,,
-0.6240 ,1.0800 ,,,,
-0.6208 ,1.3600 ,,,,
-0.6176 ,1.6000 ,,,,
-0.6144 ,1.8800 ,,,,
-0.6112 ,2.1200 ,,,,
-0.6080 ,2.3600 ,,,,
-0.6048 ,2.6000 ,,,,
-0.6016 ,2.8400 ,,,,
-0.5984 ,3.0000 ,,,,
-0.5952 ,3.1600 ,,,,
-0.5920 ,3.3200 ,,,,
-0.5888 ,3.4800 ,,,,
-0.5856 ,3.5600 ,,,,
-0.5824 ,3.6800 ,,,,
-0.5792 ,3.7200 ,,,,
-0.5760 ,3.8000 ,,,,
-0.5728 ,3.8400 ,,,,
-0.5696 ,3.8400 ,,,,
-0.5664 ,3.8000 ,,,,
-0.5632 ,3.7600 ,,,,
-0.5600 ,3.7200 ,,,,
-0.5568 ,3.6400 ,,,,
-0.5536 ,3.5600 ,,,,
-0.5504 ,3.4800 ,,,,
-0.5472 ,3.3200 ,,,,
-0.5440 ,3.2000 ,,,,
-0.5408 ,3.0400 ,,,,
-0.5376 ,2.8800 ,,,,
-0.5344 ,2.7600 ,,,,
-0.5312 ,2.5600 ,,,,
-0.5280 ,2.3600 ,,,,
-0.5248 ,2.2000 ,,,,
-0.5216 ,2.0000 ,,,,
-0.5184 ,1.8000 ,,,,
-0.5152 ,1.6400 ,,,,
-0.5120 ,1.4800 ,,,,
-0.5088 ,1.3200 ,,,,
-0.5056 ,1.1200 ,,,,
-0.5024 ,1.0000 ,,,,
-0.4992 ,0.8400 ,,,,
-0.4960 ,0.7200 ,,,,
-0.4928 ,0.5600 ,,,,
-0.4896 ,0.4400 ,,,,
-0.4864 ,0.3600 ,,,,
-0.4832 ,0.2000 ,,,,
-0.4800 ,0.1200 ,,,,
-0.4768 ,0.0000 ,,,,
-0.4736 ,-0.0400 ,,,,
-0.4704 ,-0.1200 ,,,,
-0.4672 ,-0.2400 ,,,,
-0.4640 ,-0.2800 ,,,,
-0.4608 ,-0.3600 ,,,,
-0.4576 ,-0.4000 ,,,,
-0.4544 ,-0.4800 ,,,,
-0.4512 ,-0.5200 ,,,,
-0.4480 ,-0.6000 ,,,,
-0.4448 ,-0.6400 ,,,,
-0.4416 ,-0.6800 ,,,,
-0.4384 ,-0.7600 ,,,,
-0.4352 ,-0.7200 ,,,,
-0.4320 ,-0.7600 ,,,,
-0.4288 ,-0.7600 ,,,,
-0.4256 ,-0.8400 ,,,,
-0.4224 ,-0.8000 ,,,,
-0.4192 ,-0.8400 ,,,,
-0.4160 ,-0.8400 ,,,,
-0.4128 ,-0.8400 ,,,,
-0.4096 ,-0.8800 ,,,,
-0.4064 ,-0.8400 ,,,,
-0.4032 ,-0.8400 ,,,,
-0.4000 ,-0.8000 ,,,,
-0.3968 ,-0.8400 ,,,,
-0.3936 ,-0.7600 ,,,,
-0.3904 ,-0.7600 ,,,,
-0.3872 ,-0.7600 ,,,,
-0.3840 ,-0.7200 ,,,,
-0.3808 ,-0.6800 ,,,,
-0.3776 ,-0.6400 ,,,,
-0.3744 ,-0.6000 ,,,,
-0.3712 ,-0.5600 ,,,,
-0.3680 ,-0.5200 ,,,,
-0.3648 ,-0.4400 ,,,,
-0.3616 ,-0.4000 ,,,,
-0.3584 ,-0.3600 ,,,,
-0.3552 ,-0.3200 ,,,,
-0.3520 ,-0.2800 ,,,,
-0.3488 ,-0.2000 ,,,,
-0.3456 ,-0.1600 ,,,,
-0.3424 ,-0.1200 ,,,,
-0.3392 ,-0.0800 ,,,,
-0.3360 ,-0.0400 ,,,,
-0.3328 ,0.0000 ,,,,
-0.3296 ,0.0400 ,,,,
-0.3264 ,0.0800 ,,,,
-0.3232 ,0.0800 ,,,,
-0.3200 ,0.0800 ,,,,
-0.3168 ,0.1200 ,,,,
-0.3136 ,0.1200 ,,,,
-0.3104 ,0.1600 ,,,,
-0.3072 ,0.1200 ,,,,
-0.3040 ,0.1200 ,,,,
-0.3008 ,0.1200 ,,,,
-0.2976 ,0.1200 ,,,,
-0.2944 ,0.1200 ,,,,
-0.2912 ,0.0400 ,,,,
-0.2880 ,0.0400 ,,,,
-0.2848 ,0.0000 ,,,,
-0.2816 ,0.0000 ,,,,
-0.2784 ,-0.0400 ,,,,
-0.2752 ,-0.0800 ,,,,
-0.2720 ,-0.1200 ,,,,
-0.2688 ,-0.1600 ,,,,
-0.2656 ,-0.2000 ,,,,
-0.2624 ,-0.2400 ,,,,
-0.2592 ,-0.2800 ,,,,
-0.2560 ,-0.3200 ,,,,
-0.2528 ,-0.3600 ,,,,
-0.2496 ,-0.4000 ,,,,
-0.2464 ,-0.4400 ,,,,
-0.2432 ,-0.5200 ,,,,
-0.2400 ,-0.5600 ,,,,
-0.2368 ,-0.6000 ,,,,
-0.2336 ,-0.6400 ,,,,
-0.2304 ,-0.6800 ,,,,
-0.2272 ,-0.7200 ,,,,
-0.2240 ,-0.7600 ,,,,
-0.2208 ,-0.8000 ,,,,
-0.2176 ,-0.8800 ,,,,
-0.2144 ,-0.8800 ,,,,
-0.2112 ,-0.9200 ,,,,
-0.2080 ,-0.9200 ,,,,
-0.2048 ,-1.0000 ,,,,
-0.2016 ,-1.0000 ,,,,
-0.1984 ,-1.0400 ,,,,
-0.1952 ,-1.0800 ,,,,
-0.1920 ,-1.0800 ,,,,
-0.1888 ,-1.1200 ,,,,
-0.1856 ,-1.1600 ,,,,
-0.1824 ,-1.1600 ,,,,
-0.1792 ,-1.2000 ,,,,
-0.1760 ,-1.2000 ,,,,
-0.1728 ,-1.2400 ,,,,
-0.1696 ,-1.2400 ,,,,
-0.1664 ,-1.2800 ,,,,
-0.1632 ,-1.2400 ,,,,
-0.1600 ,-1.3200 ,,,,
-0.1568 ,-1.2800 ,,,,
-0.1536 ,-1.2800 ,,,,
-0.1504 ,-1.3200 ,,,,
-0.1472 ,-1.3200 ,,,,
-0.1440 ,-1.3200 ,,,,
-0.1408 ,-1.3200 ,,,,
-0.1376 ,-1.3200 ,,,,
-0.1344 ,-1.3200 ,,,,
-0.1312 ,-1.3600 ,,,,
-0.1280 ,-1.3600 ,,,,
-0.1248 ,-1.4000 ,,,,
-0.1216 ,-1.3600 ,,,,
-0.1184 ,-1.4000 ,,,,
-0.1152 ,-1.4000 ,,,,
-0.1120 ,-1.4000 ,,,,
-0.1088 ,-1.4000 ,,,,
-0.1056 ,-1.4400 ,,,,
-0.1024 ,-1.4400 ,,,,
-0.0992 ,-1.4800 ,,,,
-0.0960 ,-1.4800 ,,,,
-0.0928 ,-1.4400 ,,,,
-0.0896 ,-1.4800 ,,,,
-0.0864 ,-1.4800 ,,,,
-0.0832 ,-1.4400 ,,,,
-0.0800 ,-1.4800 ,,,,
-0.0768 ,-1.4800 ,,,,
-0.0736 ,-1.5200 ,,,,
-0.0704 ,-1.5200 ,,,,
-0.0672 ,-1.4800 ,,,,
-0.0640 ,-1.4800 ,,,,
-0.0608 ,-1.5200 ,,,,
-0.0576 ,-1.5600 ,,,,
-0.0544 ,-1.5200 ,,,,
-0.0512 ,-1.5600 ,,,,
-0.0480 ,-1.5200 ,,,,
-0.0448 ,-1.5200 ,,,,
-0.0416 ,-1.5600 ,,,,
-0.0384 ,-1.5600 ,,,,
-0.0352 ,-1.5600 ,,,,
-0.0320 ,-1.6000 ,,,,
-0.0288 ,-1.6000 ,,,,
-0.0256 ,-1.6000 ,,,,
-0.0224 ,-1.6000 ,,,,
-0.0192 ,-1.6000 ,,,,
-0.0160 ,-1.5600 ,,,,
-0.0128 ,-1.5200 ,,,,
-0.0096 ,-1.4800 ,,,,
-0.0064 ,-1.4400 ,,,,
-0.0032 ,-1.4000 ,,,,
0.0000 ,-1.2800 ,,,,
0.0032 ,-1.2000 ,,,,
0.0064 ,-1.0800 ,,,,
0.0096 ,-0.9200 ,,,,
0.0128 ,-0.7600 ,,,,
0.0160 ,-0.6000 ,,,,
0.0192 ,-0.4000 ,,,,
0.0224 ,-0.2000 ,,,,
0.0256 ,0.0400 ,,,,
0.0288 ,0.2400 ,,,,
0.0320 ,0.5200 ,,,,
0.0352 ,0.7200 ,,,,
0.0384 ,0.9600 ,,,,
0.0416 ,1.2000 ,,,,
0.0448 ,1.4800 ,,,,
0.0480 ,1.7200 ,,,,
0.0512 ,2.0000 ,,,,
0.0544 ,2.2400 ,,,,
0.0576 ,2.4800 ,,,,
0.0608 ,2.7200 ,,,,
0.0640 ,2.9200 ,,,,
0.0672 ,3.1600 ,,,,
0.0704 ,3.3200 ,,,,
0.0736 ,3.5200 ,,,,
0.0768 ,3.6400 ,,,,
0.0800 ,3.7600 ,,,,
0.0832 ,3.8400 ,,,,
0.0864 ,3.9200 ,,,,
0.0896 ,4.0000 ,,,,
0.0928 ,4.0000 ,,,,
0.0960 ,4.0000 ,,,,
0.0992 ,4.0000 ,,,,
0.1024 ,3.9600 ,,,,
0.1056 ,3.9200 ,,,,
0.1088 ,3.8400 ,,,,
0.1120 ,3.8000 ,,,,
0.1152 ,3.6800 ,,,,
0.1184 ,3.5600 ,,,,
0.1216 ,3.4400 ,,,,
0.1248 ,3.3200 ,,,,
0.1280 ,3.2000 ,,,,
0.1312 ,3.0800 ,,,,
0.1344 ,2.9200 ,,,,
0.1376 ,2.8000 ,,,,
0.1408 ,2.6800 ,,,,
0.1440 ,2.4800 ,,,,
0.1472 ,2.3200 ,,,,
0.1504 ,2.1600 ,,,,
0.1536 ,2.0400 ,,,,
0.1568 ,1.8400 ,,,,
0.1600 ,1.6800 ,,,,
0.1632 ,1.4800 ,,,,
0.1664 ,1.3200 ,,,,
0.1696 ,1.2000 ,,,,
0.1728 ,1.0000 ,,,,
0.1760 ,0.8400 ,,,,
0.1792 ,0.7200 ,,,,
0.1824 ,0.6000 ,,,,
0.1856 ,0.4400 ,,,,
0.1888 ,0.3600 ,,,,
0.1920 ,0.2400 ,,,,
0.1952 ,0.1600 ,,,,
0.1984 ,0.1200 ,,,,
0.2016 ,0.0000 ,,,,
0.2048 ,-0.0400 ,,,,
0.2080 ,-0.1200 ,,,,
0.2112 ,-0.1200 ,,,,
0.2144 ,-0.2000 ,,,,
0.2176 ,-0.2000 ,,,,
0.2208 ,-0.2400 ,,,,
0.2240 ,-0.2800 ,,,,
0.2272 ,-0.2800 ,,,,
0.2304 ,-0.3200 ,,,,
0.2336 ,-0.3200 ,,,,
0.2368 ,-0.3600 ,,,,
0.2400 ,-0.3600 ,,,,
0.2432 ,-0.3600 ,,,,
0.2464 ,-0.3600 ,,,,
0.2496 ,-0.4000 ,,,,
0.2528 ,-0.4400 ,,,,
0.2560 ,-0.4400 ,,,,
0.2592 ,-0.4000 ,,,,
0.2624 ,-0.4000 ,,,,
0.2656 ,-0.4000 ,,,,
0.2688 ,-0.3600 ,,,,
0.2720 ,-0.3600 ,,,,
0.2752 ,-0.3600 ,,,,
0.2784 ,-0.3600 ,,,,
0.2816 ,-0.3200 ,,,,
0.2848 ,-0.2800 ,,,,
0.2880 ,-0.2800 ,,,,
0.2912 ,-0.2400 ,,,,
0.2944 ,-0.2400 ,,,,
0.2976 ,-0.2000 ,,,,
0.3008 ,-0.1600 ,,,,
0.3040 ,-0.1200 ,,,,
0.3072 ,-0.1200 ,,,,
0.3104 ,-0.0400 ,,,,
0.3136 ,-0.0400 ,,,,
0.3168 ,0.0000 ,,,,
0.3200 ,0.0000 ,,,,
0.3232 ,0.0400 ,,,,
0.3264 ,0.0400 ,,,,
0.3296 ,0.0800 ,,,,
0.3328 ,0.1600 ,,,,
0.3360 ,0.1200 ,,,,
0.3392 ,0.1600 ,,,,
0.3424 ,0.1600 ,,,,
0.3456 ,0.1600 ,,,,
0.3488 ,0.1600 ,,,,
0.3520 ,0.1600 ,,,,
0.3552 ,0.1600 ,,,,
0.3584 ,0.1600 ,,,,
0.3616 ,0.1200 ,,,,
0.3648 ,0.1200 ,,,,
0.3680 ,0.0800 ,,,,
0.3712 ,0.1200 ,,,,
0.3744 ,0.0400 ,,,,
0.3776 ,0.0000 ,,,,
0.3808 ,0.0000 ,,,,
0.3840 ,-0.0800 ,,,,
0.3872 ,-0.1200 ,,,,
0.3904 ,-0.1600 ,,,,
0.3936 ,-0.2400 ,,,,
0.3968 ,-0.2800 ,,,,
0.4000 ,-0.3200 ,,,,
0.4032 ,-0.3600 ,,,,
0.4064 ,-0.4400 ,,,,
0.4096 ,-0.4800 ,,,,
0.4128 ,-0.5600 ,,,,
0.4160 ,-0.6000 ,,,,
0.4192 ,-0.6400 ,,,,
0.4224 ,-0.6800 ,,,,
0.4256 ,-0.7600 ,,,,
0.4288 ,-0.7600 ,,,,
0.4320 ,-0.8400 ,,,,
0.4352 ,-0.8400 ,,,,
0.4384 ,-0.8800 ,,,,
0.4416 ,-0.9200 ,,,,
0.4448 ,-0.9600 ,,,,
0.4480 ,-1.0000 ,,,,
0.4512 ,-1.0400 ,,,,
0.4544 ,-1.0000 ,,,,
0.4576 ,-1.0800 ,,,,
0.4608 ,-1.0400 ,,,,
0.4640 ,-1.0800 ,,,,
0.4672 ,-1.0800 ,,,,
0.4704 ,-1.1200 ,,,,
0.4736 ,-1.1200 ,,,,
0.4768 ,-1.1200 ,,,,
0.4800 ,-1.1200 ,,,,
0.4832 ,-1.1600 ,,,,
0.4864 ,-1.1600 ,,,,
0.4896 ,-1.1600 ,,,,
0.4928 ,-1.2000 ,,,,
0.4960 ,-1.2000 ,,,,
0.4992 ,-1.2400 ,,,,
0.5024 ,-1.2400 ,,,,
0.5056 ,-1.2400 ,,,,
0.5088 ,-1.2400 ,,,,
0.5120 ,-1.3200 ,,,,
0.5152 ,-1.3200 ,,,,
0.5184 ,-1.3600 ,,,,
0.5216 ,-1.4000 ,,,,
0.5248 ,-1.4000 ,,,,
0.5280 ,-1.4400 ,,,,
0.5312 ,-1.4400 ,,,,
0.5344 ,-1.4400 ,,,,
0.5376 ,-1.4800 ,,,,
0.5408 ,-1.4800 ,,,,
0.5440 ,-1.5200 ,,,,
0.5472 ,-1.5200 ,,,,
0.5504 ,-1.5600 ,,,,
0.5536 ,-1.5600 ,,,,
0.5568 ,-1.5600 ,,,,
0.5600 ,-1.5600 ,,,,
0.5632 ,-1.6000 ,,,,
0.5664 ,-1.6400 ,,,,
0.5696 ,-1.6400 ,,,,
0.5728 ,-1.6400 ,,,,
0.5760 ,-1.6800 ,,,,
0.5792 ,-1.7200 ,,,,
0.5824 ,-1.6800 ,,,,
0.5856 ,-1.7200 ,,,,
0.5888 ,-1.7200 ,,,,
0.5920 ,-1.7200 ,,,,
0.5952 ,-1.7600 ,,,,
0.5984 ,-1.7600 ,,,,
0.6016 ,-1.8000 ,,,,
0.6048 ,-1.7600 ,,,,
0.6080 ,-1.8400 ,,,,
0.6112 ,-1.8000 ,,,,
0.6144 ,-1.8000 ,,,,
0.6176 ,-1.8400 ,,,,
0.6208 ,-1.8400 ,,,,
0.6240 ,-1.8800 ,,,,
0.6272 ,-1.8800 ,,,,
0.6304 ,-1.8800 ,,,,
0.6336 ,-1.8800 ,,,,
0.6368 ,-1.8800 ,,,,
0.6400 ,-1.8400 ,,,,
0.6432 ,-1.8400 ,,,,
0.6464 ,-1.8400 ,,,,
0.6496 ,-1.7600 ,,,,
0.6528 ,-1.6800 ,,,,
0.6560 ,-1.6400 ,,,,
0.6592 ,-1.5200 ,,,,
0.6624 ,-1.4400 ,,,,
0.6656 ,-1.3200 ,,,,
0.6688 ,-1.1600 ,,,,
0.6720 ,-1.0000 ,,,,
0.6752 ,-0.8400 ,,,,
0.6784 ,-0.6800 ,,,,
0.6816 ,-0.4400 ,,,,
0.6848 ,-0.2400 ,,,,
0.6880 ,-0.0400 ,,,,
0.6912 ,0.2000 ,,,,
0.6944 ,0.4400 ,,,,
0.6976 ,0.6800 ,,,,
0.7008 ,0.9600 ,,,,
0.7040 ,1.2400 ,,,,
0.7072 ,1.5200 ,,,,
0.7104 ,1.7600 ,,,,
0.7136 ,2.0400 ,,,,
0.7168 ,2.2800 ,,,,
0.7200 ,2.5200 ,,,,
0.7232 ,2.7600 ,,,,
0.7264 ,2.9600 ,,,,
0.7296 ,3.1600 ,,,,
0.7328 ,3.3200 ,,,,
0.7360 ,3.5200 ,,,,
0.7392 ,3.6400 ,,,,
0.7424 ,3.7600 ,,,,
0.7456 ,3.8400 ,,,,
0.7488 ,3.9200 ,,,,
0.7520 ,4.0000 ,,,,
0.7552 ,4.0400 ,,,,
0.7584 ,4.0000 ,,,,
0.7616 ,4.0000 ,,,,
0.7648 ,4.0000 ,,,,
0.7680 ,3.9200 ,,,,
0.7712 ,3.8400 ,,,,
0.7744 ,3.7600 ,,,,
0.7776 ,3.6400 ,,,,
0.7808 ,3.5600 ,,,,
0.7840 ,3.4400 ,,,,
0.7872 ,3.2800 ,,,,
0.7904 ,3.1600 ,,,,
0.7936 ,3.0000 ,,,,
0.7968 ,2.8400 ,,,,
0.8000 ,2.6800 ,,,,
0.8032 ,2.5200 ,,,,
0.8064 ,2.3600 ,,,,
0.8096 ,2.2000 ,,,,
0.8128 ,2.0000 ,,,,
0.8160 ,1.8400 ,,,,
0.8192 ,1.7200 ,,,,
0.8224 ,1.5200 ,,,,
0.8256 ,1.4000 ,,,,
0.8288 ,1.2800 ,,,,
0.8320 ,1.1600 ,,,,
0.8352 ,1.0400 ,,,,
0.8384 ,0.9200 ,,,,
0.8416 ,0.8000 ,,,,
0.8448 ,0.7200 ,,,,
0.8480 ,0.6400 ,,,,
0.8512 ,0.5600 ,,,,
0.8544 ,0.4800 ,,,,
0.8576 ,0.4400 ,,,,
0.8608 ,0.3200 ,,,,
0.8640 ,0.2800 ,,,,
0.8672 ,0.2400 ,,,,
0.8704 ,0.1600 ,,,,
0.8736 ,0.1200 ,,,,
0.8768 ,0.0400 ,,,,
0.8800 ,0.0400 ,,,,
0.8832 ,0.0000 ,,,,
0.8864 ,-0.0400 ,,,,
0.8896 ,-0.0800 ,,,,
0.8928 ,-0.0800 ,,,,
0.8960 ,-0.1200 ,,,,
0.8992 ,-0.1600 ,,,,
0.9024 ,-0.2000 ,,,,
0.9056 ,-0.2000 ,,,,
0.9088 ,-0.2000 ,,,,
0.9120 ,-0.2400 ,,,,
0.9152 ,-0.2400 ,,,,
0.9184 ,-0.2400 ,,,,
0.9216 ,-0.2800 ,,,,
0.9248 ,-0.2400 ,,,,
0.9280 ,-0.2000 ,,,,
0.9312 ,-0.2400 ,,,,
0.9344 ,-0.2000 ,,,,
0.9376 ,-0.2000 ,,,,
0.9408 ,-0.1600 ,,,,
0.9440 ,-0.1600 ,,,,
0.9472 ,-0.1200 ,,,,
0.9504 ,-0.0800 ,,,,
0.9536 ,-0.0800 ,,,,
0.9568 ,0.0000 ,,,,
0.9600 ,0.0400 ,,,,
0.9632 ,0.0400 ,,,,
0.9664 ,0.0800 ,,,,
0.9696 ,0.0800 ,,,,
0.9728 ,0.1600 ,,,,
0.9760 ,0.1200 ,,,,
0.9792 ,0.1600 ,,,,
0.9824 ,0.2000 ,,,,
0.9856 ,0.2000 ,,,,
0.9888 ,0.2000 ,,,,
0.9920 ,0.2400 ,,,,
0.9952 ,0.2400 ,,,,
0.9984 ,0.2400 ,,,,
1.0020 ,0.2800 ,,,,
1.0050 ,0.2400 ,,,,
1.0080 ,0.2400 ,,,,
1.0110 ,0.2000 ,,,,
1.0140 ,0.2400 ,,,,
1.0180 ,0.2000 ,,,,
1.0210 ,0.1600 ,,,,
1.0240 ,0.1600 ,,,,
1.0270 ,0.1200 ,,,,
1.0300 ,0.0800 ,,,,
1.0340 ,0.1200 ,,,,
1.0370 ,0.0800 ,,,,
1.0400 ,0.0400 ,,,,
1.0430 ,-0.0400 ,,,,
1.0460 ,-0.0400 ,,,,
1.0500 ,-0.0400 ,,,,
1.0530 ,-0.0800 ,,,,
1.0560 ,-0.1200 ,,,,
1.0590 ,-0.1600 ,,,,
1.0620 ,-0.2400 ,,,,
1.0660 ,-0.2400 ,,,,
1.0690 ,-0.2800 ,,,,
1.0720 ,-0.3200 ,,,,
1.0750 ,-0.3600 ,,,,
1.0780 ,-0.4000 ,,,,
1.0820 ,-0.4800 ,,,,
1.0850 ,-0.5200 ,,,,
1.0880 ,-0.5200 ,,,,
1.0910 ,-0.5600 ,,,,
1.0940 ,-0.6400 ,,,,
1.0980 ,-0.6800 ,,,,
1.1010 ,-0.7200 ,,,,
1.1040 ,-0.7600 ,,,,
1.1070 ,-0.8000 ,,,,
1.1100 ,-0.8800 ,,,,
1.1140 ,-0.8800 ,,,,
1.1170 ,-0.9200 ,,,,
1.1200 ,-0.9600 ,,,,
1.1230 ,-1.0000 ,,,,
1.1260 ,-1.0400 ,,,,
1.1300 ,-1.0800 ,,,,
1.1330 ,-1.0800 ,,,,
1.1360 ,-1.1200 ,,,,
1.1390 ,-1.2000 ,,,,
1.1420 ,-1.2000 ,,,,
1.1460 ,-1.2000 ,,,,
1.1490 ,-1.2400 ,,,,
1.1520 ,-1.2800 ,,,,
1.1550 ,-1.2800 ,,,,
1.1580 ,-1.3200 ,,,,
1.1620 ,-1.3200 ,,,,
1.1650 ,-1.3600 ,,,,
1.1680 ,-1.3600 ,,,,
1.1710 ,-1.4000 ,,,,
1.1740 ,-1.3600 ,,,,
1.1780 ,-1.4000 ,,,,
1.1810 ,-1.4000 ,,,,
1.1840 ,-1.4000 ,,,,
1.1870 ,-1.4400 ,,,,
1.1900 ,-1.4400 ,,,,
1.1940 ,-1.4400 ,,,,
1.1970 ,-1.4400 ,,,,
1.2000 ,-1.4800 ,,,,
1.2030 ,-1.4800 ,,,,
1.2060 ,-1.4800 ,,,,
1.2100 ,-1.5200 ,,,,
1.2130 ,-1.5200 ,,,,
1.2160 ,-1.5600 ,,,,
1.2190 ,-1.5200 ,,,,
1.2220 ,-1.5200 ,,,,
1.2260 ,-1.5600 ,,,,
1.2290 ,-1.6000 ,,,,
1.2320 ,-1.5600 ,,,,
1.2350 ,-1.6000 ,,,,
1.2380 ,-1.6000 ,,,,
1.2420 ,-1.6000 ,,,,
1.2450 ,-1.6000 ,,,,
1.2480 ,-1.6000 ,,,,
1.2510 ,-1.6400 ,,,,
1.2540 ,-1.6400 ,,,,
1.2580 ,-1.6800 ,,,,
1.2610 ,-1.6800 ,,,,
1.2640 ,-1.6800 ,,,,
1.2670 ,-1.7200 ,,,,
1.2700 ,-1.6800 ,,,,
1.2740 ,-1.7200 ,,,,
1.2770 ,-1.7200 ,,,,
1.2800 ,-1.7200 ,,,,
1.2830 ,-1.7200 ,,,,
1.2860 ,-1.7600 ,,,,
1.2900 ,-1.7600 ,,,,
1.2930 ,-1.7200 ,,,,
1.2960 ,-1.7600 ,,,,
1.2990 ,-1.7600 ,,,,
1.3020 ,-1.7600 ,,,,
1.3060 ,-1.7600 ,,,,
1.3090 ,-1.7200 ,,,,
1.3120 ,-1.7200 ,,,,
1.3150 ,-1.6800 ,,,,
1.3180 ,-1.6400 ,,,,
1.3220 ,-1.5600 ,,,,
1.3250 ,-1.5200 ,,,,
1.3280 ,-1.4400 ,,,,
1.3310 ,-1.3600 ,,,,
1.3340 ,-1.2400 ,,,,
1.3380 ,-1.0800 ,,,,
1.3410 ,-0.9600 ,,,,
1.3440 ,-0.8000 ,,,,
1.3470 ,-0.6400 ,,,,
1.3500 ,-0.4800 ,,,,
1.3540 ,-0.2400 ,,,,
1.3570 ,0.0000 ,,,,
1.3600 ,0.2000 ,,,,
1.3630 ,0.4400 ,,,,
1.3660 ,0.7200 ,,,,
1.3700 ,0.9600 ,,,,
1.3730 ,1.2400 ,,,,
1.3760 ,1.5200 ,,,,
1.3790 ,1.7600 ,,,,
1.3820 ,1.9600 ,,,,
1.3860 ,2.2400 ,,,,
1.3890 ,2.4800 ,,,,
1.3920 ,2.6800 ,,,,
1.3950 ,2.8800 ,,,,
1.3980 ,3.0800 ,,,,
1.4020 ,3.2400 ,,,,
1.4050 ,3.4000 ,,,,
1.4080 ,3.5200 ,,,,
1.4110 ,3.6400 ,,,,
1.4140 ,3.7200 ,,,,
1.4180 ,3.8000 ,,,,
1.4210 ,3.8000 ,,,,
1.4240 ,3.8400 ,,,,
1.4270 ,3.8400 ,,,,
1.4300 ,3.8400 ,,,,
1.4340 ,3.7600 ,,,,
1.4370 ,3.7200 ,,,,
1.4400 ,3.6400 ,,,,
1.4430 ,3.5200 ,,,,
1.4460 ,3.4400 ,,,,
1.4500 ,3.3200 ,,,,
1.4530 ,3.2000 ,,,,
1.4560 ,3.0000 ,,,,
1.4590 ,2.8400 ,,,,
1.4620 ,2.6800 ,,,,
1.4660 ,2.5200 ,,,,
1.4690 ,2.3600 ,,,,
1.4720 ,2.1600 ,,,,
1.4750 ,2.0000 ,,,,
1.4780 ,1.8400 ,,,,
1.4820 ,1.7200 ,,,,
1.4850 ,1.5600 ,,,,
1.4880 ,1.4000 ,,,,
1.4910 ,1.2800 ,,,,
1.4940 ,1.1600 ,,,,
1.4980 ,1.0400 ,,,,
1.5010 ,0.9200 ,,,,
1.5040 ,0.8400 ,,,,
1.5070 ,0.7600 ,,,,
1.5100 ,0.6800 ,,,,
1.5140 ,0.5600 ,,,,
1.5170 ,0.4800 ,,,,
1.5200 ,0.4400 ,,,,
1.5230 ,0.3600 ,,,,
1.5260 ,0.2800 ,,,,
1.5300 ,0.2400 ,,,,
1.5330 ,0.2000 ,,,,
1.5360 ,0.1200 ,,,,
1.5390 ,0.0800 ,,,,
1.5420 ,0.0000 ,,,,
1.5460 ,-0.0400 ,,,,
1.5490 ,-0.0800 ,,,,
1.5520 ,-0.1200 ,,,,
1.5550 ,-0.1600 ,,,,
1.5580 ,-0.2000 ,,,,
1.5620 ,-0.2000 ,,,,
1.5650 ,-0.2400 ,,,,
1.5680 ,-0.2800 ,,,,
1.5710 ,-0.3200 ,,,,
1.5740 ,-0.3200 ,,,,
1.5780 ,-0.3200 ,,,,
1.5810 ,-0.3200 ,,,,
1.5840 ,-0.3600 ,,,,
1.5870 ,-0.3200 ,,,,
1.5900 ,-0.3200 ,,,,
1.5940 ,-0.3200 ,,,,
1.5970 ,-0.3600 ,,,,
1.6000 ,-0.3200 ,,,,
1.6030 ,-0.3200 ,,,,
1.6060 ,-0.2800 ,,,,
1.6100 ,-0.2800 ,,,,
1.6130 ,-0.2800 ,,,,
1.6160 ,-0.2400 ,,,,
1.6190 ,-0.2000 ,,,,
1.6220 ,-0.2000 ,,,,
1.6260 ,-0.2000 ,,,,
1.6290 ,-0.2000 ,,,,
1.6320 ,-0.1200 ,,,,
1.6350 ,-0.1200 ,,,,
1.6380 ,-0.1600 ,,,,
1.6420 ,-0.0800 ,,,,
1.6450 ,-0.0800 ,,,,
1.6480 ,-0.0800 ,,,,
1.6510 ,-0.0800 ,,,,
1.6540 ,-0.0800 ,,,,
1.6580 ,-0.0400 ,,,,
1.6610 ,-0.0800 ,,,,
1.6640 ,-0.0400 ,,,,
1.6670 ,-0.0400 ,,,,
1.6700 ,-0.0400 ,,,,
1.6740 ,-0.0400 ,,,,
1.6770 ,-0.0400 ,,,,
1.6800 ,-0.0400 ,,,,
1.6830 ,-0.0400 ,,,,
1.6860 ,-0.0400 ,,,,
1.6900 ,-0.0800 ,,,,
1.6930 ,-0.0800 ,,,,
1.6960 ,-0.0800 ,,,,
1.6990 ,-0.0800 ,,,,
1.7020 ,-0.1200 ,,,,
1.7060 ,-0.1200 ,,,,
1.7090 ,-0.1600 ,,,,
1.7120 ,-0.2000 ,,,,
1.7150 ,-0.2000 ,,,,
1.7180 ,-0.2400 ,,,,
1.7220 ,-0.2800 ,,,,
1.7250 ,-0.3600 ,,,,
1.7280 ,-0.3600 ,,,,
1.7310 ,-0.4400 ,,,,
1.7340 ,-0.4800 ,,,,
1.7380 ,-0.5200 ,,,,
1.7410 ,-0.5600 ,,,,
1.7440 ,-0.6000 ,,,,
1.7470 ,-0.6800 ,,,,
1.7500 ,-0.6800 ,,,,
1.7540 ,-0.7600 ,,,,
1.7570 ,-0.7600 ,,,,
1.7600 ,-0.8400 ,,,,
1.7630 ,-0.8800 ,,,,
1.7660 ,-0.9200 ,,,,
1.7700 ,-0.9600 ,,,,
1.7730 ,-1.0000 ,,,,
1.7760 ,-1.0400 ,,,,
1.7790 ,-1.0800 ,,,,
1.7820 ,-1.1200 ,,,,
1.7860 ,-1.1600 ,,,,
1.7890 ,-1.1600 ,,,,
1.7920 ,-1.2400 ,,,,
1.7950 ,-1.2800 ,,,,
1.7980 ,-1.2800 ,,,,
1.8020 ,-1.2800 ,,,,
1.8050 ,-1.3600 ,,,,
1.8080 ,-1.3600 ,,,,
1.8110 ,-1.4000 ,,,,
1.8140 ,-1.4400 ,,,,
1.8180 ,-1.4000 ,,,,
1.8210 ,-1.4000 ,,,,
1.8240 ,-1.4400 ,,,,
1.8270 ,-1.4400 ,,,,
1.8300 ,-1.4800 ,,,,
1.8340 ,-1.5200 ,,,,
1.8370 ,-1.5200 ,,,,
1.8400 ,-1.5200 ,,,,
1.8430 ,-1.5600 ,,,,
1.8460 ,-1.5600 ,,,,
1.8500 ,-1.5600 ,,,,
1.8530 ,-1.6000 ,,,,
1.8560 ,-1.6000 ,,,,
1.8590 ,-1.6000 ,,,,
1.8620 ,-1.6400 ,,,,
1.8660 ,-1.6400 ,,,,
1.8690 ,-1.6400 ,,,,
1.8720 ,-1.6400 ,,,,
1.8750 ,-1.6400 ,,,,
1.8780 ,-1.6400 ,,,,
1.8820 ,-1.6800 ,,,,
1.8850 ,-1.6400 ,,,,
1.8880 ,-1.6800 ,,,,
1.8910 ,-1.7200 ,,,,
1.8940 ,-1.6800 ,,,,
1.8980 ,-1.6800 ,,,,
1.9010 ,-1.7200 ,,,,
1.9040 ,-1.6800 ,,,,
1.9070 ,-1.7200 ,,,,
1.9100 ,-1.6800 ,,,,
1.9140 ,-1.7200 ,,,,
1.9170 ,-1.7200 ,,,,
1.9200 ,-1.7200 ,,,,
1.9230 ,-1.7600 ,,,,
1.9260 ,-1.7200 ,,,,
1.9300 ,-1.7600 ,,,,
1.9330 ,-1.7600 ,,,,
1.9360 ,-1.8000 ,,,,
1.9390 ,-1.8000 ,,,,
1.9420 ,-1.8000 ,,,,
1.9460 ,-1.8000 ,,,,
1.9490 ,-1.8000 ,,,,
1.9520 ,-1.8400 ,,,,
1.9550 ,-1.8400 ,,,,
1.9580 ,-1.8400 ,,,,
1.9620 ,-1.8400 ,,,,
1.9650 ,-1.8800 ,,,,
1.9680 ,-1.8800 ,,,,
1.9710 ,-1.8800 ,,,,
1.9740 ,-1.9200 ,,,,
1.9780 ,-1.9200 ,,,,
1.9810 ,-1.9600 ,,,,
1.9840 ,-1.9200 ,,,,
1.9870 ,-1.9200 ,,,,
1.9900 ,-1.9200 ,,,,
1.9940 ,-1.9200 ,,,,
1.9970 ,-1.9200 ,,,,
2.0000 ,-1.8800 ,,,,
2.0030 ,-1.8800 ,,,,
2.0060 ,-1.8400 ,,,,
2.0100 ,-1.8000 ,,,,
2.0130 ,-1.7200 ,,,,
2.0160 ,-1.6000 ,,,,
2.0190 ,-1.4800 ,,,,
2.0220 ,-1.3600 ,,,,
2.0260 ,-1.2000 ,,,,
2.0290 ,-1.0400 ,,,,
2.0320 ,-0.8800 ,,,,
2.0350 ,-0.6400 ,,,,
2.0380 ,-0.4400 ,,,,
2.0420 ,-0.2000 ,,,,
2.0450 ,0.0400 ,,,,
2.0480 ,0.2800 ,,,,
2.0510 ,0.5200 ,,,,
2.0540 ,0.8000 ,,,,
2.0580 ,1.0800 ,,,,
2.0610 ,1.3200 ,,,,
2.0640 ,1.5600 ,,,,
2.0670 ,1.8000 ,,,,
2.0700 ,2.0400 ,,,,
2.0740 ,2.2400 ,,,,
2.0770 ,2.4800 ,,,,
2.0800 ,2.6400 ,,,,
2.0830 ,2.8400 ,,,,
2.0860 ,3.0000 ,,,,
2.0900 ,3.1200 ,,,,
2.0930 ,3.2800 ,,,,
2.0960 ,3.3600 ,,,,
2.0990 ,3.4800 ,,,,
2.1020 ,3.5200 ,,,,
2.1060 ,3.5600 ,,,,
2.1090 ,3.6000 ,,,,
2.1120 ,3.6400 ,,,,
2.1150 ,3.6800 ,,,,
2.1180 ,3.6000 ,,,,
2.1220 ,3.5200 ,,,,
2.1250 ,3.5200 ,,,,
2.1280 ,3.4000 ,,,,
2.1310 ,3.2800 ,,,,
2.1340 ,3.1600 ,,,,
2.1380 ,3.0400 ,,,,
2.1410 ,2.8800 ,,,,
2.1440 ,2.7600 ,,,,
2.1470 ,2.6400 ,,,,
2.1500 ,2.4400 ,,,,
2.1540 ,2.2400 ,,,,
2.1570 ,2.1200 ,,,,
2.1600 ,1.9600 ,,,,
2.1630 ,1.8000 ,,,,
2.1660 ,1.6800 ,,,,
2.1700 ,1.5600 ,,,,
2.1730 ,1.4400 ,,,,
2.1760 ,1.3200 ,,,,
2.1790 ,1.2400 ,,,,
2.1820 ,1.0800 ,,,,
2.1860 ,1.0000 ,,,,
2.1890 ,0.8800 ,,,,
2.1920 ,0.8000 ,,,,
2.1950 ,0.7200 ,,,,
2.1980 ,0.6400 ,,,,
2.2020 ,0.6000 ,,,,
2.2050 ,0.5200 ,,,,
2.2080 ,0.4400 ,,,,
2.2110 ,0.4400 ,,,,
2.2140 ,0.4000 ,,,,
2.2180 ,0.2800 ,,,,
2.2210 ,0.2400 ,,,,
2.2240 ,0.2000 ,,,,
2.2270 ,0.2000 ,,,,
2.2300 ,0.1200 ,,,,
2.2340 ,0.0400 ,,,,
2.2370 ,0.0000 ,,,,
2.2400 ,0.0000 ,,,,
2.2430 ,-0.0400 ,,,,
2.2460 ,-0.1200 ,,,,
2.2500 ,-0.1600 ,,,,
2.2530 ,-0.2000 ,,,,
2.2560 ,-0.2000 ,,,,
2.2590 ,-0.2400 ,,,,
2.2620 ,-0.3200 ,,,,
2.2660 ,-0.2800 ,,,,
2.2690 ,-0.3600 ,,,,
2.2720 ,-0.3600 ,,,,
2.2750 ,-0.3600 ,,,,
2.2780 ,-0.4000 ,,,,
2.2820 ,-0.3600 ,,,,
2.2850 ,-0.3600 ,,,,
2.2880 ,-0.3600 ,,,,
2.2910 ,-0.3600 ,,,,
2.2940 ,-0.3200 ,,,,
2.2980 ,-0.2800 ,,,,
2.3010 ,-0.2800 ,,,,
2.3040 ,-0.2400 ,,,,
2.3070 ,-0.2400 ,,,,
2.3100 ,-0.1600 ,,,,
2.3140 ,-0.1600 ,,,,
2.3170 ,-0.0800 ,,,,
2.3200 ,-0.0800 ,,,,
2.3230 ,-0.0400 ,,,,
2.3260 ,0.0000 ,,,,
2.3300 ,0.0400 ,,,,
2.3330 ,0.0400 ,,,,
2.3360 ,0.1200 ,,,,
2.3390 ,0.1200 ,,,,
2.3420 ,0.1200 ,,,,
2.3460 ,0.1600 ,,,,
2.3490 ,0.1600 ,,,,
2.3520 ,0.1600 ,,,,
2.3550 ,0.1600 ,,,,
2.3580 ,0.1600 ,,,,
2.3620 ,0.2000 ,,,,
2.3650 ,0.1600 ,,,,
2.3680 ,0.1600 ,,,,
2.3710 ,0.1200 ,,,,
2.3740 ,0.0800 ,,,,
2.3780 ,0.0800 ,,,,
2.3810 ,0.0800 ,,,,
2.3840 ,0.0000 ,,,,
2.3870 ,0.0000 ,,,,
2.3900 ,0.0000 ,,,,
2.3940 ,-0.0800 ,,,,
2.3970 ,-0.0800 ,,,,
2.4000 ,-0.1200 ,,,,
2.4030 ,-0.1600 ,,,,
2.4060 ,-0.2000 ,,,,
2.4100 ,-0.2000 ,,,,
2.4130 ,-0.2400 ,,,,
2.4160 ,-0.2800 ,,,,
2.4190 ,-0.3200 ,,,,
2.4220 ,-0.3600 ,,,,
2.4260 ,-0.4000 ,,,,
2.4290 ,-0.4000 ,,,,
2.4320 ,-0.4800 ,,,,
2.4350 ,-0.4800 ,,,,
2.4380 ,-0.5200 ,,,,
2.4420 ,-0.5600 ,,,,
2.4450 ,-0.6000 ,,,,
2.4480 ,-0.6400 ,,,,
2.4510 ,-0.6800 ,,,,
2.4540 ,-0.7200 ,,,,
2.4580 ,-0.7600 ,,,,
2.4610 ,-0.8400 ,,,,
2.4640 ,-0.8400 ,,,,
2.4670 ,-0.8800 ,,,,
2.4700 ,-0.9200 ,,,,
2.4740 ,-0.9600 ,,,,
2.4770 ,-1.0400 ,,,,
2.4800 ,-1.0400 ,,,,
2.4830 ,-1.0800 ,,,,
2.4860 ,-1.1200 ,,,,
2.4900 ,-1.1200 ,,,,
2.4930 ,-1.1600 ,,,,
2.4960 ,-1.1600 ,,,,
2.4990 ,-1.2000 ,,,,
2.5020 ,-1.2400 ,,,,
2.5060 ,-1.2800 ,,,,
2.5090 ,-1.2800 ,,,,
2.5120 ,-1.3200 ,,,,
2.5150 ,-1.3600 ,,,,
2.5180 ,-1.3600 ,,,,
2.5220 ,-1.3600 ,,,,
2.5250 ,-1.3600 ,,,,
2.5280 ,-1.4000 ,,,,
2.5310 ,-1.4000 ,,,,
2.5340 ,-1.4000 ,,,,
2.5380 ,-1.4000 ,,,,
2.5410 ,-1.4400 ,,,,
2.5440 ,-1.4800 ,,,,
2.5470 ,-1.4400 ,,,,
2.5500 ,-1.4800 ,,,,
2.5540 ,-1.4800 ,,,,
2.5570 ,-1.4800 ,,,,
2.5600 ,-1.4800 ,,,,
2.5630 ,-1.4800 ,,,,
2.5660 ,-1.5200 ,,,,
2.5700 ,-1.5200 ,,,,
2.5730 ,-1.5200 ,,,,
2.5760 ,-1.5200 ,,,,
2.5790 ,-1.5600 ,,,,
2.5820 ,-1.5600 ,,,,
2.5860 ,-1.5600 ,,,,
2.5890 ,-1.5600 ,,,,
2.5920 ,-1.5600 ,,,,
2.5950 ,-1.5600 ,,,,
2.5980 ,-1.6000 ,,,,
2.6020 ,-1.6000 ,,,,
2.6050 ,-1.6000 ,,,,
2.6080 ,-1.6000 ,,,,
2.6110 ,-1.6400 ,,,,
2.6140 ,-1.6000 ,,,,
2.6180 ,-1.6400 ,,,,
2.6210 ,-1.6400 ,,,,
2.6240 ,-1.6800 ,,,,
2.6270 ,-1.6400 ,,,,
2.6300 ,-1.6400 ,,,,
2.6340 ,-1.6800 ,,,,
2.6370 ,-1.7200 ,,,,
2.6400 ,-1.7200 ,,,,
2.6430 ,-1.6800 ,,,,
2.6460 ,-1.7200 ,,,,
2.6500 ,-1.6800 ,,,,
2.6530 ,-1.6800 ,,,,
2.6560 ,-1.7200 ,,,,
2.6590 ,-1.7200 ,,,,
2.6620 ,-1.7200 ,,,,
2.6660 ,-1.7600 ,,,,
2.6690 ,-1.7600 ,,,,
2.6720 ,-1.7600 ,,,,
2.6750 ,-1.7600 ,,,,
2.6780 ,-1.8000 ,,,,
2.6820 ,-1.8000 ,,,,
2.6850 ,-1.8000 ,,,,
2.6880 ,-1.8400 ,,,,
2.6910 ,-1.8400 ,,,,
2.6940 ,-1.8400 ,,,,
2.6980 ,-1.8400 ,,,,
2.7010 ,-1.8400 ,,,,
2.7040 ,-1.8400 ,,,,
2.7070 ,-1.8400 ,,,,
2.7100 ,-1.8400 ,,,,
2.7140 ,-1.8000 ,,,,
2.7170 ,-1.7600 ,,,,
2.7200 ,-1.6800 ,,,,
2.7230 ,-1.6800 ,,,,
2.7260 ,-1.5600 ,,,,
2.7300 ,-1.4800 ,,,,
2.7330 ,-1.3600 ,,,,
2.7360 ,-1.2000 ,,,,
2.7390 ,-1.0400 ,,,,
2.7420 ,-0.9200 ,,,,
2.7460 ,-0.7600 ,,,,
2.7490 ,-0.5600 ,,,,
2.7520 ,-0.3600 ,,,,
2.7550 ,-0.1200 ,,,,
2.7580 ,0.1200 ,,,,
2.7620 ,0.3200 ,,,,
2.7650 ,0.5600 ,,,,
2.7680 ,0.8400 ,,,,
2.7710 ,1.0800 ,,,,
2.7740 ,1.3200 ,,,,
2.7780 ,1.5600 ,,,,
2.7810 ,1.8000 ,,,,
2.7840 ,2.0400 ,,,,
2.7870 ,2.2400 ,,,,
2.7900 ,2.4800 ,,,,
2.7940 ,2.6800 ,,,,
2.7970 ,2.8800 ,,,,
2.8000 ,3.0400 ,,,,
2.8030 ,3.2000 ,,,,
2.8060 ,3.3200 ,,,,
2.8100 ,3.4800 ,,,,
2.8130 ,3.5200 ,,,,
2.8160 ,3.6000 ,,,,
2.8190 ,3.6400 ,,,,
2.8220 ,3.6800 ,,,,
2.8260 ,3.6800 ,,,,
2.8290 ,3.6400 ,,,,
2.8320 ,3.6400 ,,,,
2.8350 ,3.6000 ,,,,
2.8380 ,3.4800 ,,,,
2.8420 ,3.4000 ,,,,
2.8450 ,3.3200 ,,,,
2.8480 ,3.2000 ,,,,
2.8510 ,3.0400 ,,,,
2.8540 ,2.9200 ,,,,
2.8580 ,2.7600 ,,,,
2.8610 ,2.6000 ,,,,
2.8640 ,2.4400 ,,,,
2.8670 ,2.2400 ,,,,
2.8700 ,2.0400 ,,,,
2.8740 ,1.8800 ,,,,
2.8770 ,1.7200 ,,,,
2.8800 ,1.5200 ,,,,
2.8830 ,1.3200 ,,,,
2.8860 ,1.1600 ,,,,
2.8900 ,1.0400 ,,,,
2.8930 ,0.9200 ,,,,
2.8960 ,0.7600 ,,,,
2.8990 ,0.6400 ,,,,
2.9020 ,0.5200 ,,,,
2.9060 ,0.4400 ,,,,
2.9090 ,0.3200 ,,,,
2.9120 ,0.2000 ,,,,
2.9150 ,0.1200 ,,,,
2.9180 ,0.0400 ,,,,
2.9220 ,0.0000 ,,,,
2.9250 ,-0.0800 ,,,,
2.9280 ,-0.1600 ,,,,
2.9310 ,-0.1600 ,,,,
2.9340 ,-0.2000 ,,,,
2.9380 ,-0.2800 ,,,,
2.9410 ,-0.3200 ,,,,
2.9440 ,-0.3600 ,,,,
2.9470 ,-0.4000 ,,,,
2.9500 ,-0.4000 ,,,,
2.9540 ,-0.4000 ,,,,
2.9570 ,-0.4000 ,,,,
2.9600 ,-0.4400 ,,,,
2.9630 ,-0.4400 ,,,,
2.9660 ,-0.4800 ,,,,
2.9700 ,-0.5200 ,,,,
2.9730 ,-0.4800 ,,,,
2.9760 ,-0.4800 ,,,,
2.9790 ,-0.4800 ,,,,
2.9820 ,-0.4800 ,,,,
2.9860 ,-0.4800 ,,,,
2.9890 ,-0.4800 ,,,,
2.9920 ,-0.4400 ,,,,
2.9950 ,-0.4400 ,,,,
2.9980 ,-0.4000 ,,,,
3.0020 ,-0.4000 ,,,,
3.0050 ,-0.3600 ,,,,
3.0080 ,-0.3200 ,,,,
3.0110 ,-0.2800 ,,,,
3.0140 ,-0.2800 ,,,,
3.0180 ,-0.2000 ,,,,
3.0210 ,-0.1600 ,,,,
3.0240 ,-0.1600 ,,,,
3.0270 ,-0.0800 ,,,,
3.0300 ,-0.0400 ,,,,
3.0340 ,0.0000 ,,,,
3.0370 ,0.0400 ,,,,
3.0400 ,0.0400 ,,,,
3.0430 ,0.1200 ,,,,
3.0460 ,0.1600 ,,,,
3.0500 ,0.1600 ,,,,
3.0530 ,0.2000 ,,,,
3.0560 ,0.2000 ,,,,
3.0590 ,0.2000 ,,,,
3.0620 ,0.2800 ,,,,
3.0660 ,0.2800 ,,,,
3.0690 ,0.2800 ,,,,
3.0720 ,0.2800 ,,,,
3.0750 ,0.2800 ,,,,
3.0780 ,0.2800 ,,,,
3.0820 ,0.2800 ,,,,
3.0850 ,0.2800 ,,,,
3.0880 ,0.2400 ,,,,
3.0910 ,0.2400 ,,,,
3.0940 ,0.2000 ,,,,
3.0980 ,0.1600 ,,,,
3.1010 ,0.1600 ,,,,
3.1040 ,0.1200 ,,,,
3.1070 ,0.0800 ,,,,
3.1100 ,0.0400 ,,,,
3.1140 ,0.0000 ,,,,
3.1170 ,0.0000 ,,,,
3.1200 ,-0.0400 ,,,,
3.1230 ,-0.0800 ,,,,
3.1260 ,-0.1200 ,,,,
3.1300 ,-0.1600 ,,,,
3.1330 ,-0.2400 ,,,,
3.1360 ,-0.2400 ,,,,
3.1390 ,-0.2800 ,,,,
3.1420 ,-0.3200 ,,,,
3.1460 ,-0.3600 ,,,,
3.1490 ,-0.4000 ,,,,
3.1520 ,-0.4400 ,,,,
3.1550 ,-0.4800 ,,,,
3.1580 ,-0.5200 ,,,,
3.1620 ,-0.5600 ,,,,
3.1650 ,-0.6000 ,,,,
3.1680 ,-0.6000 ,,,,
3.1710 ,-0.6400 ,,,,
3.1740 ,-0.6800 ,,,,
3.1780 ,-0.6800 ,,,,
3.1810 ,-0.7200 ,,,,
3.1840 ,-0.7600 ,,,,
3.1870 ,-0.8000 ,,,,
3.1900 ,0.0000 ,,,,
3.1940 ,0.0000 ,,,,
3.1970 ,0.0000 ,,,,